Folder: CompliantMechanism/APDL Code

Note: README.md
# CompliantMechanism
Group Project Compliant Mechanisms

File: APDL_DATA_1_flexture.csv
 Displacement (m),Displacement (mm), Reaction_Force (N),Reaction_Force_2_Flextures (N)
-4.00E-04,0.4,0.611761,1.22352
-8.00E-04,0.8,1.18452,2.36903
-1.20E-03,1.2,1.72227,3.44454
-1.60E-03,1.6,2.22847,4.45695
-2.00E-03,2,2.70614,5.41227
-2.40E-03,2.4,3.15787,6.31575
-2.80E-03,2.8,3.58599,7.17197
-3.20E-03,3.2,3.9925,7.985
-3.60E-03,3.6,4.37921,8.75843
-4.00E-03,4,4.74771,9.49543
-4.40E-03,4.4,5.09942,10.1988
-4.80E-03,4.8,5.43562,10.8712
-5.20E-03,5.2,5.75744,11.5149
-5.60E-03,5.6,6.06591,12.1318
-6.00E-03,6,6.36197,12.7239
-6.40E-03,6.4,6.64646,13.2929
-6.80E-03,6.8,6.92014,13.8403
-7.20E-03,7.2,7.1837,14.3674
-7.60E-03,7.6,7.43779,14.8756
-8.00E-03,8,7.682985,15.36597
-8.40E-03,8.4,7.91967,15.8393
-8.80E-03,8.8,8.14863,16.2973
-9.20E-03,9.2,8.37018,16.7404
-9.60E-03,9.6,8.58473,17.1695
-1.00E-02,10,8.79265,17.5853
-1.04E-02,10.4,8.99431,17.9886
-1.08E-02,10.8,9.19004,18.3801
-1.12E-02,11.2,9.36074,18.7215
-1.16E-02,11.6,9.56501,19.13
-1.20E-02,12,9.73183,19.4637
-1.24E-02,12.4,9.91935,19.8387
-1.28E-02,12.8,10.0755,20.1509
-1.32E-02,13.2,10.2556,20.5112
-1.36E-02,13.6,10.406,20.812
-1.40E-02,14,10.5576,21.1153
-1.44E-02,14.4,10.7288,21.4576
-1.48E-02,14.8,10.8712,21.7424
-1.52E-02,15.2,11.0129,22.0258
-1.56E-02,15.6,11.1524,22.3048
-1.60E-02,16,11.3093,22.6185
-1.64E-02,16.4,11.441,22.882
-1.68E-02,16.8,11.5713,23.1427
-1.72E-02,17.2,11.6993,23.3986
-1.76E-02,17.6,11.8255,23.6511
-1.80E-02,18,11.95,23.9
-1.84E-02,18.4,12.0897,24.1794
-1.88E-02,18.8,12.209,24.4179
-1.92E-02,19.2,12.3257,24.6513
-1.96E-02,19.6,12.4393,24.8786
-2.00E-02,20,12.5506,25.1012